Folder: idlspec2d/etc

Note: etc/BG14.txt
3000    0.007
3100    0.11
3200    0.38
3300    0.65
3400    0.81
3500    0.89
3600    0.94
3700    0.96
3800    0.97
3900    0.98
4000    0.985
4200    0.99
4400    0.99
4600    0.99
4800    0.985
5000    0.97
5200    0.93
5400    0.88
5600    0.81
5800    0.72
6000    0.63
6200    0.54
6400    0.47
6600    0.40
6800    0.35
7000    0.32
7200    0.295
7400    0.275
7600    0.26
7800    0.253
8000    0.25
8250    0.252
8500    0.26
9000    0.30
9500    0.35
10000   0.40
10600   0.46
11000   0.50
12000   0.61

Note: etc/FG3.txt
3000    0.83
3100    0.90
3200    0.95
3300    0.97
3400    0.98
3500    0.99
3600    0.99
3700    0.99
3800    0.99
3900    0.99
4000    0.98
4200    0.96
4400    0.90
4500    0.85
4600    0.80
4700    0.72
4800    0.63
4900    0.55
5000    0.47
5100    0.40
5200    0.35
5250    0.33
5300    0.32
5350    0.325
5400    0.34
5500    0.36
5600    0.37
5650    0.365
5700    0.345
5750    0.30
5780    0.25
5800    0.21
5850    0.17
5900    0.16
5950    0.164
6000    0.172
6100    0.190
6200    0.195
6300    0.18
6400    0.17
6500    0.18
6600    0.22
6700    0.31
6800    0.44
6900    0.60
7000    0.77
7200    0.94
7400    0.99
7600    0.99
7800    0.99
8000    0.99
8500    0.99
9000    0.98
9500    0.97
10000   0.95
10600   0.92
11000   0.88
12000   0.87

Note: README
#------------------------------------------------------------------------------
# Instructions for installing idlutils,idlspec2d
#
# D. Schlegel, Princeton, 1 Dec 1999
#------------------------------------------------------------------------------
#------------------------------------------------------------------------------
# Setting up idlutils,idlspec2d w/out sdsstools

# First check-out the products to your home directory (for example)...

cvs co idlutils
cvs co idlspec2d

# Then build everything... ("evilmake" is in {$IDLUTILS_DIR}/bin)

setenv IDLUTILS_DIR {$HOME}/idlutils
setenv IDLSPEC2D_DIR {$HOME}/idlspec2d
setenv PATH {$PATH}:{$IDLUTILS_DIR}/bin
cd {$IDLUTILS_DIR}
evilmake all
cd {$IDLSPEC2D_DIR}
evilmake all

# Then set environment variables for IDL...

#setenv IDL_DIR /usr/local/rsi/idl_5.2
setenv IDL_PATH         .:+{$IDL_DIR}/lib
setenv IDL_PATH         {$IDL_PATH}:+{$IDLUTILS_DIR}/goddard/pro
setenv IDL_PATH         {$IDL_PATH}:+{$IDLUTILS_DIR}/pro
setenv IDL_PATH         {$IDL_PATH}:+{$IDLUTILS_DIR}/pro
setenv IDL_PATH         {$IDL_PATH}:+{$IDLSPEC2D_DIR}/pro

#------------------------------------------------------------------------------
#------------------------------------------------------------------------------
# Setting up idlutils,idlspec2d w/ sdsstools

# First check-out the products to your home directory (for example)...

cvs co idlutils
cvs co idlspec2d

# The environment variable IDL_PATH will be set properly by "ups"
# as long as IDL_DIR is already set (e.g., with "setup idl")...

setup idl

# As user "products", declare these products:

ups declare -f Linux+2 -m idlutils.table -c -r {$HOME}/idlutils idlutils cvs
ups declare -f Linux+2 -m idlspec2d.table -c -r {$HOME}/idlspec2d idlspec2d cvs

# Then (not as user "products") build everything...

setup sdsstools

setup idlutils
cd ~/idlutils
sdssmake -idl -opt -debug

setup idlspec2d
cd ~/idlspec2d
sdssmake -idl -opt -debug

#------------------------------------------------------------------------------
#------------------------------------------------------------------------------

File: altbg14.txt
Wavelength (nm)	Intensity  (1 mm of glass)
1000.0	6.9000
997.00	6.8000
994.00	6.7000
991.00	6.5000
988.00	6.4000
985.00	6.3000
982.00	6.1000
979.00	6.0000
976.00	5.8000
973.00	5.7000
970.00	5.6000
967.00	5.4000
964.00	5.3000
961.00	5.2000
958.00	5.1000
955.00	5.0000
952.00	4.8000
949.00	4.7000
946.00	4.6000
943.00	4.5000
940.00	4.4000
937.00	4.3000
934.00	4.2000
931.00	4.1000
928.00	4.0000
925.00	3.9000
922.00	3.8000
919.00	3.8000
916.00	3.7000
913.00	3.6000
910.00	3.5000
907.00	3.4000
904.00	3.3000
901.00	3.3000
898.00	3.2000
895.00	3.1000
892.00	3.1000
889.00	3.0000
886.00	3.0000
883.00	2.9000
880.00	2.8000
877.00	2.8000
874.00	2.7000
871.00	2.7000
868.00	2.6000
865.00	2.6000
862.00	2.5000
859.00	2.5000
856.00	2.5000
853.00	2.4000
850.00	2.4000
847.00	2.4000
844.00	2.3000
841.00	2.3000
838.00	2.3000
835.00	2.2000
832.00	2.2000
829.00	2.2000
826.00	2.2000
823.00	2.2000
820.00	2.1000
817.00	2.1000
814.00	2.1000
811.00	2.1000
808.00	2.1000
805.00	2.1000
802.00	2.1000
799.00	2.1000
796.00	2.1000
793.00	2.1000
790.00	2.1000
787.00	2.1000
784.00	2.1000
781.00	2.1000
778.00	2.1000
775.00	2.1000
772.00	2.1000
769.00	2.1000
766.00	2.2000
763.00	2.2000
760.00	2.2000
757.00	2.2000
754.00	2.3000
751.00	2.3000
748.00	2.4000
745.00	2.4000
742.00	2.4000
739.00	2.5000
736.00	2.6000
733.00	2.6000
730.00	2.7000
727.00	2.8000
724.00	2.9000
721.00	2.9000
718.00	3.0000
715.00	3.1000
712.00	3.2000
709.00	3.3000
706.00	3.5000
703.00	3.6000
700.00	3.7000
697.00	3.9000
694.00	4.1000
691.00	4.2000
688.00	4.4000
685.00	4.7000
682.00	4.9000
679.00	5.1000
676.00	5.4000
673.00	5.7000
670.00	6.0000
667.00	6.3000
664.00	6.7000
661.00	7.1000
658.00	7.5000
655.00	8.0000
652.00	8.4000
649.00	9.0000
646.00	9.5000
643.00	10.200
640.00	10.800
637.00	11.500
634.00	12.300
631.00	13.100
628.00	13.900
625.00	14.900
622.00	15.800
619.00	16.800
616.00	17.900
613.00	19.100
610.00	20.300
607.00	21.600
604.00	22.900
601.00	24.500
598.00	25.800
595.00	27.400
592.00	29.000
589.00	30.700
586.00	32.400
583.00	34.200
580.00	36.100
577.00	38.000
574.00	40.000
571.00	42.100
568.00	44.200
565.00	46.300
562.00	48.300
559.00	50.500
556.00	52.600
553.00	54.800
550.00	57.000
547.00	59.100
544.00	61.100
541.00	63.200
538.00	65.200
535.00	67.200
532.00	69.200
529.00	71.000
526.00	72.800
523.00	74.500
520.00	76.100
517.00	77.600
514.00	79.100
511.00	80.400
508.00	81.600
505.00	82.700
502.00	83.700
499.00	84.500
496.00	85.400
493.00	86.100
490.00	86.600
487.00	87.200
484.00	87.600
481.00	88.000
478.00	88.400
475.00	88.700
472.00	88.900
469.00	89.100
466.00	89.300
463.00	89.400
460.00	89.400
457.00	89.500
454.00	89.500
451.00	89.500
448.00	89.500
445.00	89.500
442.00	89.400
439.00	89.300
436.00	89.200
433.00	89.200
430.00	89.100
427.00	89.000
424.00	88.900
421.00	88.700
418.00	88.500
415.00	88.400
412.00	88.200
409.00	88.000
406.00	87.800
403.00	87.600
400.00	87.400
397.00	87.100
394.00	86.700
391.00	86.400
388.00	86.000
385.00	85.500
382.00	85.000
379.00	84.200
376.00	83.700
373.00	83.000
370.00	82.100
367.00	81.000
364.00	79.800
361.00	78.300
358.00	76.400
355.00	74.100
352.00	71.300
349.00	68.000
346.00	63.700
343.00	59.000
340.00	53.700
337.00	47.600
334.00	40.900
331.00	33.300
328.00	25.700
325.00	18.800
322.00	12.500
319.00	7.4000
316.00	3.7000
313.00	1.7000
310.00	0.60000
307.00	0.30000
304.00	0.20000
301.00	0.20000
298.00	0.20000
295.00	0.20000
292.00	0.10000
289.00	0.10000
286.00	0.10000
283.00	0.10000
280.00	0.0000
277.00	0.0000
274.00	0.10000
271.00	0.10000
268.00	0.10000
265.00	0.0000
262.00	0.0000
259.00	0.0000
256.00	0.0000
253.00	0.0000
250.00	0.0000
247.00	0.0000
244.00	0.0000
241.00	0.0000
238.00	0.0000
235.00	0.0000
232.00	0.0000
229.00	0.0000
226.00	0.0000
223.00	0.0000
220.00	0.0000
217.00	0.0000
214.00	0.0000
211.00	0.0000
208.00	0.0000
205.00	0.0000
202.00	0.0000
200.00	0.10000